File: tio2_Ellipsometry_nk_300_1000.txt
300	2.8698	0.62912
301	2.8735	0.61413
302	2.8767	0.59909
303	2.8796	0.58399
304	2.8822	0.56886
305	2.8843	0.55369
306	2.8861	0.53852
307	2.8875	0.52334
308	2.8885	0.50816
309	2.8891	0.49301
310	2.8894	0.47789
311	2.8893	0.46281
312	2.8888	0.44779
313	2.8879	0.43283
314	2.8866	0.41795
315	2.885	0.40317
316	2.883	0.38848
317	2.8806	0.37392
318	2.8779	0.35947
319	2.8748	0.34517
320	2.8713	0.33102
321	2.8675	0.31703
322	2.8633	0.30322
323	2.8588	0.28959
324	2.8539	0.27616
325	2.8487	0.26294
326	2.8432	0.24993
327	2.8373	0.23716
328	2.8311	0.22463
329	2.8246	0.21235
330	2.8178	0.20033
331	2.8106	0.18859
332	2.8031	0.17713
333	2.7954	0.16596
334	2.7872	0.15509
335	2.7788	0.14454
336	2.7699	0.13431
337	2.7604	0.12466
338	2.7507	0.11577
339	2.741	0.10756
340	2.7312	0.099989
341	2.7214	0.09299
342	2.7118	0.086519
343	2.7023	0.080532
344	2.6929	0.074989
345	2.6837	0.069856
346	2.6746	0.065099
347	2.6657	0.060689
348	2.657	0.056599
349	2.6485	0.052804
350	2.6402	0.049282
351	2.632	0.046011
352	2.6241	0.042972
353	2.6163	0.040148
354	2.6087	0.037523
355	2.6013	0.035082
356	2.594	0.03281
357	2.5869	0.030696
358	2.58	0.028728
359	2.5733	0.026895
360	2.5667	0.025188
361	2.5603	0.023597
362	2.554	0.022113
363	2.5479	0.02073
364	2.5419	0.019439
365	2.5361	0.018235
366	2.5304	0.017111
367	2.5248	0.016061
368	2.5193	0.01508
369	2.514	0.014164
370	2.5088	0.013307
371	2.5037	0.012507
372	2.4988	0.011758
373	2.4939	0.011057
374	2.4891	0.010402
375	2.4845	0.0097877
376	2.4799	0.0092129
377	2.4755	0.0086745
378	2.4711	0.00817
379	2.4669	0.0076971
380	2.4627	0.0072538
381	2.4586	0.006838
382	2.4546	0.006448
383	2.4506	0.0060819
384	2.4468	0.0057383
385	2.443	0.0054157
386	2.4393	0.0051127
387	2.4357	0.004828
388	2.4321	0.0045605
389	2.4286	0.0043089
390	2.4252	0.0040725
391	2.4218	0.00385
392	2.4185	0.0036407
393	2.4153	0.0034438
394	2.4121	0.0032583
395	2.409	0.0030837
396	2.4059	0.0029193
397	2.4029	0.0027643
398	2.3999	0.0026183
399	2.397	0.0024807
400	2.3942	0.0023509
401	2.3913	0.0022285
402	2.3886	0.002113
403	2.3858	0.002004
404	2.3832	0.0019011
405	2.3805	0.0018039
406	2.3779	0.0017122
407	2.3754	0.0016255
408	2.3729	0.0015436
409	2.3704	0.0014662
410	2.368	0.001393
411	2.3656	0.0013238
412	2.3632	0.0012584
413	2.3609	0.0011964
414	2.3586	0.0011378
415	2.3563	0.0010824
416	2.3541	0.0010298
417	2.3519	0.00098007
418	2.3498	0.00093295
419	2.3476	0.00088829
420	2.3455	0.00084597
421	2.3435	0.00080585
422	2.3414	0.00076781
423	2.3394	0.00073173
424	2.3374	0.0006975
425	2.3355	0.00066503
426	2.3335	0.0006342
427	2.3316	0.00060494
428	2.3297	0.00057716
429	2.3279	0.00055077
430	2.326	0.0005257
431	2.3242	0.00050189
432	2.3225	0.00047925
433	2.3207	0.00045773
434	2.319	0.00043727
435	2.3172	0.00041781
436	2.3155	0.00039931
437	2.3139	0.0003817
438	2.3122	0.00036494
439	2.3106	0.00034899
440	2.309	0.00033381
441	2.3074	0.00031935
442	2.3058	0.00030557
443	2.3042	0.00029245
444	2.3027	0.00027995
445	2.3012	0.00026804
446	2.2997	0.00025668
447	2.2982	0.00024585
448	2.2967	0.00023553
449	2.2953	0.00022568
450	2.2938	0.00021629
451	2.2924	0.00020732
452	2.291	0.00019877
453	2.2896	0.0001906
454	2.2882	0.0001828
455	2.2869	0.00017535
456	2.2855	0.00016824
457	2.2842	0.00016145
458	2.2829	0.00015496
459	2.2816	0.00014875
460	2.2803	0.00014282
461	2.279	0.00013715
462	2.2778	0.00013173
463	2.2765	0.00012655
464	2.2753	0.00012159
465	2.2741	0.00011685
466	2.2729	0.00011231
467	2.2717	0.00010796
468	2.2705	0.0001038
469	2.2693	9.9821e-005
470	2.2682	9.6007e-005
471	2.267	9.2355e-005
472	2.2659	8.8857e-005
473	2.2648	8.5505e-005
474	2.2637	8.2294e-005
475	2.2626	7.9215e-005
476	2.2615	7.6265e-005
477	2.2604	7.3436e-005
478	2.2593	7.0723e-005
479	2.2583	6.8121e-005
480	2.2572	6.5626e-005
481	2.2562	6.3232e-005
482	2.2551	6.0934e-005
483	2.2541	5.8729e-005
484	2.2531	5.6613e-005
485	2.2521	5.4582e-005
486	2.2511	5.2631e-005
487	2.2501	5.0758e-005
488	2.2492	4.8958e-005
489	2.2482	4.723e-005
490	2.2472	4.5569e-005
491	2.2463	4.3974e-005
492	2.2453	4.244e-005
493	2.2444	4.0966e-005
494	2.2435	3.9549e-005
495	2.2426	3.8186e-005
496	2.2417	3.6876e-005
497	2.2408	3.5616e-005
498	2.2399	3.4403e-005
499	2.239	3.3237e-005
500	2.2381	3.2115e-005
501	2.2373	3.1035e-005
502	2.2364	2.9995e-005
503	2.2356	2.8994e-005
504	2.2347	2.8031e-005
505	2.2339	2.7103e-005
506	2.233	2.6209e-005
507	2.2322	2.5348e-005
508	2.2314	2.4519e-005
509	2.2306	2.372e-005
510	2.2298	2.295e-005
511	2.229	2.2209e-005
512	2.2282	2.1493e-005
513	2.2274	2.0804e-005
514	2.2266	2.0139e-005
515	2.2259	1.9498e-005
516	2.2251	1.888e-005
517	2.2244	1.8284e-005
518	2.2236	1.7709e-005
519	2.2229	1.7154e-005
520	2.2221	1.6619e-005
521	2.2214	1.6102e-005
522	2.2207	1.5603e-005
523	2.2199	1.5122e-005
524	2.2192	1.4657e-005
525	2.2185	1.4208e-005
526	2.2178	1.3775e-005
527	2.2171	1.3356e-005
528	2.2164	1.2952e-005
529	2.2157	1.2561e-005
530	2.215	1.2184e-005
531	2.2144	1.1819e-005
532	2.2137	1.1467e-005
533	2.213	1.1126e-005
534	2.2124	1.0797e-005
535	2.2117	1.0479e-005
536	2.2111	1.0171e-005
537	2.2104	9.8735e-006
538	2.2098	9.5857e-006
539	2.2091	9.3074e-006
540	2.2085	9.0381e-006
541	2.2079	8.7776e-006
542	2.2072	8.5256e-006
543	2.2066	8.2817e-006
544	2.206	8.0456e-006
545	2.2054	7.8171e-006
546	2.2048	7.596e-006
547	2.2042	7.3818e-006
548	2.2036	7.1745e-006
549	2.203	6.9738e-006
550	2.2024	6.7794e-006
551	2.2018	6.5911e-006
552	2.2013	6.4086e-006
553	2.2007	6.2319e-006
554	2.2001	6.0607e-006
555	2.1996	5.8948e-006
556	2.199	5.734e-006
557	2.1984	5.5782e-006
558	2.1979	5.4272e-006
559	2.1973	5.2808e-006
560	2.1968	5.1388e-006
561	2.1962	5.0012e-006
562	2.1957	4.8677e-006
563	2.1952	4.7383e-006
564	2.1946	4.6127e-006
565	2.1941	4.4909e-006
566	2.1936	4.3728e-006
567	2.1931	4.2582e-006
568	2.1925	4.1469e-006
569	2.192	4.039e-006
570	2.1915	3.9342e-006
571	2.191	3.8326e-006
572	2.1905	3.7339e-006
573	2.19	3.6381e-006
574	2.1895	3.545e-006
575	2.189	3.4547e-006
576	2.1885	3.367e-006
577	2.188	3.2818e-006
578	2.1875	3.1991e-006
579	2.1871	3.1187e-006
580	2.1866	3.0406e-006
581	2.1861	2.9648e-006
582	2.1856	2.891e-006
583	2.1852	2.8194e-006
584	2.1847	2.7498e-006
585	2.1843	2.6821e-006
586	2.1838	2.6164e-006
587	2.1833	2.5525e-006
588	2.1829	2.4903e-006
589	2.1824	2.4299e-006
590	2.182	2.3711e-006
591	2.1815	2.314e-006
592	2.1811	2.2584e-006
593	2.1807	2.2043e-006
594	2.1802	2.1518e-006
595	2.1798	2.1006e-006
596	2.1794	2.0509e-006
597	2.1789	2.0024e-006
598	2.1785	1.9553e-006
599	2.1781	1.9095e-006
600	2.1777	1.8648e-006
601	2.1773	1.8214e-006
602	2.1768	1.7791e-006
603	2.1764	1.738e-006
604	2.176	1.6979e-006
605	2.1756	1.6589e-006
606	2.1752	1.6209e-006
607	2.1748	1.5839e-006
608	2.1744	1.5479e-006
609	2.174	1.5128e-006
610	2.1736	1.4786e-006
611	2.1732	1.4453e-006
612	2.1728	1.4129e-006
613	2.1724	1.3812e-006
614	2.1721	1.3505e-006
615	2.1717	1.3204e-006
616	2.1713	1.2912e-006
617	2.1709	1.2627e-006
618	2.1705	1.2349e-006
619	2.1702	1.2078e-006
620	2.1698	1.1814e-006
621	2.1694	1.1557e-006
622	2.1691	1.1306e-006
623	2.1687	1.1061e-006
624	2.1683	1.0822e-006
625	2.168	1.059e-006
626	2.1676	1.0363e-006
627	2.1673	1.0141e-006
628	2.1669	9.9253e-007
629	2.1666	9.7147e-007
630	2.1662	9.5091e-007
631	2.1659	9.3086e-007
632	2.1655	9.1129e-007
633	2.1652	8.922e-007
634	2.1648	8.7356e-007
635	2.1645	8.5538e-007
636	2.1641	8.3763e-007
637	2.1638	8.203e-007
638	2.1635	8.0339e-007
639	2.1631	7.8687e-007
640	2.1628	7.7075e-007
641	2.1625	7.5501e-007
642	2.1622	7.3964e-007
643	2.1618	7.2463e-007
644	2.1615	7.0998e-007
645	2.1612	6.9566e-007
646	2.1609	6.8168e-007
647	2.1605	6.6802e-007
648	2.1602	6.5468e-007
649	2.1599	6.4164e-007
650	2.1596	6.2891e-007
651	2.1593	6.1646e-007
652	2.159	6.043e-007
653	2.1587	5.9242e-007
654	2.1584	5.8081e-007
655	2.1581	5.6946e-007
656	2.1578	5.5837e-007
657	2.1575	5.4753e-007
658	2.1572	5.3693e-007
659	2.1569	5.2657e-007
660	2.1566	5.1644e-007
661	2.1563	5.0654e-007
662	2.156	4.9685e-007
663	2.1557	4.8738e-007
664	2.1554	4.7812e-007
665	2.1551	4.6907e-007
666	2.1548	4.6021e-007
667	2.1545	4.5155e-007
668	2.1543	4.4307e-007
669	2.154	4.3478e-007
670	2.1537	4.2667e-007
671	2.1534	4.1874e-007
672	2.1531	4.1097e-007
673	2.1529	4.0338e-007
674	2.1526	3.9595e-007
675	2.1523	3.8867e-007
676	2.1521	3.8155e-007
677	2.1518	3.7459e-007
678	2.1515	3.6777e-007
679	2.1512	3.6109e-007
680	2.151	3.5456e-007
681	2.1507	3.4816e-007
682	2.1505	3.419e-007
683	2.1502	3.3577e-007
684	2.1499	3.2977e-007
685	2.1497	3.2389e-007
686	2.1494	3.1813e-007
687	2.1492	3.125e-007
688	2.1489	3.0698e-007
689	2.1486	3.0157e-007
690	2.1484	2.9628e-007
691	2.1481	2.9109e-007
692	2.1479	2.8601e-007
693	2.1476	2.8103e-007
694	2.1474	2.7615e-007
695	2.1471	2.7138e-007
696	2.1469	2.667e-007
697	2.1467	2.6211e-007
698	2.1464	2.5761e-007
699	2.1462	2.5321e-007
700	2.1459	2.4889e-007
701	2.1457	2.4466e-007
702	2.1455	2.4052e-007
703	2.1452	2.3645e-007
704	2.145	2.3247e-007
705	2.1448	2.2856e-007
706	2.1445	2.2473e-007
707	2.1443	2.2098e-007
708	2.1441	2.173e-007
709	2.1438	2.1369e-007
710	2.1436	2.1015e-007
711	2.1434	2.0668e-007
712	2.1431	2.0328e-007
713	2.1429	1.9995e-007
714	2.1427	1.9667e-007
715	2.1425	1.9346e-007
716	2.1422	1.9032e-007
717	2.142	1.8723e-007
718	2.1418	1.842e-007
719	2.1416	1.8123e-007
720	2.1414	1.7831e-007
721	2.1412	1.7545e-007
722	2.1409	1.7264e-007
723	2.1407	1.6989e-007
724	2.1405	1.6719e-007
725	2.1403	1.6454e-007
726	2.1401	1.6194e-007
727	2.1399	1.5938e-007
728	2.1397	1.5688e-007
729	2.1395	1.5442e-007
730	2.1393	1.52e-007
731	2.139	1.4963e-007
732	2.1388	1.4731e-007
733	2.1386	1.4502e-007
734	2.1384	1.4278e-007
735	2.1382	1.4058e-007
736	2.138	1.3842e-007
737	2.1378	1.363e-007
738	2.1376	1.3421e-007
739	2.1374	1.3217e-007
740	2.1372	1.3016e-007
741	2.137	1.2818e-007
742	2.1368	1.2625e-007
743	2.1366	1.2434e-007
744	2.1364	1.2247e-007
745	2.1363	1.2064e-007
746	2.1361	1.1883e-007
747	2.1359	1.1706e-007
748	2.1357	1.1532e-007
749	2.1355	1.1361e-007
750	2.1353	1.1193e-007
751	2.1351	1.1028e-007
752	2.1349	1.0866e-007
753	2.1347	1.0707e-007
754	2.1345	1.055e-007
755	2.1344	1.0396e-007
756	2.1342	1.0245e-007
757	2.134	1.0096e-007
758	2.1338	9.9503e-008
759	2.1336	9.8067e-008
760	2.1335	9.6656e-008
761	2.1333	9.527e-008
762	2.1331	9.3906e-008
763	2.1329	9.2566e-008
764	2.1327	9.1249e-008
765	2.1326	8.9954e-008
766	2.1324	8.8681e-008
767	2.1322	8.7429e-008
768	2.132	8.6198e-008
769	2.1319	8.4988e-008
770	2.1317	8.3798e-008
771	2.1315	8.2627e-008
772	2.1313	8.1477e-008
773	2.1312	8.0345e-008
774	2.131	7.9232e-008
775	2.1308	7.8137e-008
776	2.1307	7.7061e-008
777	2.1305	7.6002e-008
778	2.1303	7.496e-008
779	2.1302	7.3935e-008
780	2.13	7.2927e-008
781	2.1298	7.1936e-008
782	2.1297	7.096e-008
783	2.1295	7e-008
784	2.1293	6.9056e-008
785	2.1292	6.8127e-008
786	2.129	6.7213e-008
787	2.1289	6.6313e-008
788	2.1287	6.5428e-008
789	2.1285	6.4557e-008
790	2.1284	6.37e-008
791	2.1282	6.2857e-008
792	2.1281	6.2026e-008
793	2.1279	6.1209e-008
794	2.1278	6.0405e-008
795	2.1276	5.9613e-008
796	2.1274	5.8834e-008
797	2.1273	5.8067e-008
798	2.1271	5.7312e-008
799	2.127	5.6569e-008
800	2.1268	5.5837e-008
801	2.1267	5.5117e-008
802	2.1265	5.4407e-008
803	2.1264	5.3709e-008
804	2.1262	5.3021e-008
805	2.1261	5.2344e-008
806	2.1259	5.1678e-008
807	2.1258	5.1021e-008
808	2.1256	5.0375e-008
809	2.1255	4.9738e-008
810	2.1253	4.9111e-008
811	2.1252	4.8494e-008
812	2.1251	4.7885e-008
813	2.1249	4.7286e-008
814	2.1248	4.6696e-008
815	2.1246	4.6115e-008
816	2.1245	4.5543e-008
817	2.1243	4.4979e-008
818	2.1242	4.4423e-008
819	2.1241	4.3876e-008
820	2.1239	4.3337e-008
821	2.1238	4.2806e-008
822	2.1236	4.2282e-008
823	2.1235	4.1767e-008
824	2.1234	4.1259e-008
825	2.1232	4.0758e-008
826	2.1231	4.0265e-008
827	2.123	3.9778e-008
828	2.1228	3.9299e-008
829	2.1227	3.8827e-008
830	2.1225	3.8362e-008
831	2.1224	3.7904e-008
832	2.1223	3.7452e-008
833	2.1221	3.7006e-008
834	2.122	3.6567e-008
835	2.1219	3.6135e-008
836	2.1218	3.5708e-008
837	2.1216	3.5288e-008
838	2.1215	3.4873e-008
839	2.1214	3.4465e-008
840	2.1212	3.4062e-008
841	2.1211	3.3665e-008
842	2.121	3.3273e-008
843	2.1209	3.2887e-008
844	2.1207	3.2507e-008
845	2.1206	3.2131e-008
846	2.1205	3.1761e-008
847	2.1203	3.1397e-008
848	2.1202	3.1037e-008
849	2.1201	3.0682e-008
850	2.12	3.0332e-008
851	2.1198	2.9987e-008
852	2.1197	2.9647e-008
853	2.1196	2.9311e-008
854	2.1195	2.898e-008
855	2.1194	2.8654e-008
856	2.1192	2.8332e-008
857	2.1191	2.8014e-008
858	2.119	2.7701e-008
859	2.1189	2.7392e-008
860	2.1188	2.7087e-008
861	2.1186	2.6787e-008
862	2.1185	2.649e-008
863	2.1184	2.6197e-008
864	2.1183	2.5909e-008
865	2.1182	2.5624e-008
866	2.118	2.5343e-008
867	2.1179	2.5066e-008
868	2.1178	2.4792e-008
869	2.1177	2.4522e-008
870	2.1176	2.4256e-008
871	2.1175	2.3993e-008
872	2.1174	2.3734e-008
873	2.1172	2.3478e-008
874	2.1171	2.3225e-008
875	2.117	2.2976e-008
876	2.1169	2.273e-008
877	2.1168	2.2487e-008
878	2.1167	2.2247e-008
879	2.1166	2.2011e-008
880	2.1165	2.1777e-008
881	2.1163	2.1547e-008
882	2.1162	2.132e-008
883	2.1161	2.1095e-008
884	2.116	2.0873e-008
885	2.1159	2.0655e-008
886	2.1158	2.0439e-008
887	2.1157	2.0225e-008
888	2.1156	2.0015e-008
889	2.1155	1.9807e-008
890	2.1154	1.9602e-008
891	2.1153	1.9399e-008
892	2.1152	1.9199e-008
893	2.1151	1.9002e-008
894	2.1149	1.8807e-008
895	2.1148	1.8614e-008
896	2.1147	1.8424e-008
897	2.1146	1.8237e-008
898	2.1145	1.8051e-008
899	2.1144	1.7868e-008
900	2.1143	1.7687e-008
901	2.1142	1.7509e-008
902	2.1141	1.7332e-008
903	2.114	1.7158e-008
904	2.1139	1.6986e-008
905	2.1138	1.6816e-008
906	2.1137	1.6649e-008
907	2.1136	1.6483e-008
908	2.1135	1.6319e-008
909	2.1134	1.6157e-008
910	2.1133	1.5998e-008
911	2.1132	1.584e-008
912	2.1131	1.5684e-008
913	2.113	1.553e-008
914	2.1129	1.5378e-008
915	2.1128	1.5227e-008
916	2.1127	1.5079e-008
917	2.1126	1.4932e-008
918	2.1125	1.4787e-008
919	2.1124	1.4644e-008
920	2.1123	1.4503e-008
921	2.1122	1.4363e-008
922	2.1122	1.4225e-008
923	2.1121	1.4088e-008
924	2.112	1.3953e-008
925	2.1119	1.382e-008
926	2.1118	1.3688e-008
927	2.1117	1.3558e-008
928	2.1116	1.3429e-008
929	2.1115	1.3302e-008
930	2.1114	1.3177e-008
931	2.1113	1.3052e-008
932	2.1112	1.293e-008
933	2.1111	1.2808e-008
934	2.111	1.2688e-008
935	2.1109	1.257e-008
936	2.1109	1.2453e-008
937	2.1108	1.2337e-008
938	2.1107	1.2222e-008
939	2.1106	1.2109e-008
940	2.1105	1.1997e-008
941	2.1104	1.1887e-008
942	2.1103	1.1778e-008
943	2.1102	1.167e-008
944	2.1101	1.1563e-008
945	2.1101	1.1457e-008
946	2.11	1.1353e-008
947	2.1099	1.1249e-008
948	2.1098	1.1147e-008
949	2.1097	1.1046e-008
950	2.1096	1.0947e-008
951	2.1095	1.0848e-008
952	2.1094	1.075e-008
953	2.1094	1.0654e-008
954	2.1093	1.0559e-008
955	2.1092	1.0464e-008
956	2.1091	1.0371e-008
957	2.109	1.0279e-008
958	2.1089	1.0187e-008
959	2.1089	1.0097e-008
960	2.1088	1.0008e-008
961	2.1087	9.9198e-009
962	2.1086	9.8325e-009
963	2.1085	9.7462e-009
964	2.1084	9.6608e-009
965	2.1084	9.5763e-009
966	2.1083	9.4928e-009
967	2.1082	9.4102e-009
968	2.1081	9.3285e-009
969	2.108	9.2477e-009
970	2.108	9.1677e-009
971	2.1079	9.0886e-009
972	2.1078	9.0104e-009
973	2.1077	8.933e-009
974	2.1076	8.8564e-009
975	2.1076	8.7807e-009
976	2.1075	8.7057e-009
977	2.1074	8.6316e-009
978	2.1073	8.5582e-009
979	2.1072	8.4857e-009
980	2.1072	8.4139e-009
981	2.1071	8.3428e-009
982	2.107	8.2725e-009
983	2.1069	8.203e-009
984	2.1069	8.1342e-009
985	2.1068	8.0661e-009
986	2.1067	7.9987e-009
987	2.1066	7.932e-009
988	2.1065	7.8661e-009
989	2.1065	7.8008e-009
990	2.1064	7.7362e-009
991	2.1063	7.6722e-009
992	2.1062	7.6089e-009
993	2.1062	7.5463e-009
994	2.1061	7.4844e-009
995	2.106	7.423e-009
996	2.1059	7.3623e-009
997	2.1059	7.3023e-009
998	2.1058	7.2428e-009
999	2.1057	7.1839e-009
1000	2.1057	7.1257e-009